Block,Trial,Onset,TO1,TO2,DO1,DO2,NO1,NO2,Cue_side,TT_match,DT_match,TLoc,TOr,DOr,Resp_type,Correct,RT
1,1,47251.0,1,4,5,7,6,3,left,0,0,3,6,4,no,1,1644.0
1,2,52648.0,1,8,5,2,7,3,left,0,1,5,8,8,yes,0,791.0
1,3,57281.0,1,4,5,7,6,2,left,0,0,3,7,4,no,1,966.0
1,4,62113.0,1,2,5,4,3,7,left,0,0,6,3,2,no,1,1177.0
1,5,66864.0,1,6,5,4,3,8,left,0,1,10,6,6,no,1,972.0
1,6,71386.0,1,8,5,3,4,2,left,1,0,4,5,8,yes,1,1173.0
1,7,76273.0,1,6,5,2,4,8,left,0,0,5,4,6,no,1,1148.0
1,8,80992.0,1,6,5,7,8,4,left,1,0,4,1,6,yes,1,726.0
2,9,86810.0,8,3,6,1,4,5,right,0,0,12,7,3,no,1,950.0
2,10,91471.0,8,3,6,1,2,4,right,1,0,10,6,3,no,0,1845.0
2,11,97161.0,8,2,6,1,5,7,right,1,0,1,8,2,yes,1,695.0
2,12,101559.0,8,5,6,3,4,7,right,0,0,10,2,5,no,1,790.0
2,13,106041.0,8,5,6,1,7,4,right,0,0,1,4,5,no,1,1152.0
2,14,110953.0,8,3,6,2,4,5,right,1,0,4,8,3,yes,1,850.0
3,15,117146.0,1,5,7,6,4,3,left,1,0,9,7,5,yes,1,887.0
3,16,121945.0,1,2,7,6,8,5,left,0,0,7,6,2,no,1,1217.0
3,17,126968.0,1,2,7,4,3,6,left,1,0,12,1,2,yes,1,772.0
3,18,131336.0,1,2,7,5,4,8,left,1,0,5,7,2,yes,1,804.0
3,19,135889.0,1,5,7,8,2,3,left,1,0,5,7,5,yes,1,972.0
3,20,140569.0,1,4,7,2,5,8,left,1,0,3,7,4,yes,1,621.0
3,21,146276.0,8,2,3,4,5,6,left,1,0,9,8,2,yes,1,748.0
3,22,150753.0,8,7,3,5,1,6,left,1,0,6,3,7,yes,1,702.0
3,23,155121.0,8,7,3,1,4,2,left,1,0,7,8,7,yes,1,549.0
3,24,159409.0,8,5,3,2,7,6,left,1,0,12,3,5,yes,1,1739.0
3,25,164737.0,8,5,3,1,4,6,left,1,0,1,8,5,yes,1,594.0
3,26,169033.0,8,2,3,7,6,5,left,0,0,8,4,2,no,1,965.0
3,27,175261.0,1,8,5,6,7,4,left,1,0,5,5,8,yes,1,879.0
3,28,179761.0,1,3,5,7,8,6,left,0,0,8,2,3,no,1,926.0
3,29,184394.0,1,6,5,7,8,4,left,1,0,12,5,6,yes,1,585.0
3,30,188825.0,1,7,5,6,4,8,left,1,0,6,5,7,yes,1,775.0
3,31,193225.0,1,2,5,3,4,7,left,1,0,2,5,2,yes,1,772.0
3,32,197897.0,1,8,5,2,4,6,left,0,0,12,3,8,no,1,809.0
3,33,202562.0,1,6,5,2,8,7,left,1,0,6,1,6,yes,1,823.0
3,34,207074.0,1,8,5,4,2,7,left,0,0,6,7,8,no,1,772.0
3,35,215101.0,4,5,7,2,3,6,left,1,0,4,4,5,yes,1,651.0
3,36,219529.0,4,5,7,8,2,1,left,0,1,1,5,5,no,1,915.0
3,37,224146.0,4,3,7,6,1,5,left,1,0,1,4,3,yes,1,1552.0
3,38,229450.0,4,6,7,3,5,1,left,1,0,8,4,6,yes,1,1048.0
3,39,234235.0,4,8,7,5,2,1,left,0,0,9,1,8,no,1,1215.0
3,40,239131.0,4,2,7,1,5,3,left,1,0,9,7,2,yes,1,660.0
3,41,243586.0,4,1,7,8,6,2,left,1,0,2,7,1,yes,1,1239.0
3,42,248482.0,4,5,7,1,8,3,left,0,0,9,6,5,no,1,1362.0
3,43,253657.0,4,6,7,8,1,5,left,0,0,8,2,6,no,1,962.0
3,44,258467.0,4,3,7,6,1,5,left,1,0,11,7,3,yes,1,765.0
3,45,264570.0,2,8,5,4,7,1,left,0,0,9,4,8,no,1,1409.0
3,46,269827.0,2,6,5,7,8,3,left,1,0,6,5,6,yes,1,1147.0
3,47,274691.0,2,3,5,1,6,8,left,1,0,6,2,3,no,0,774.0
3,48,279379.0,2,1,5,8,7,4,left,1,0,5,2,1,yes,1,539.0
3,49,283795.0,2,7,5,1,6,8,left,0,0,7,6,7,no,1,1110.0
3,50,288715.0,2,8,5,6,4,1,left,0,0,3,1,8,no,1,1095.0
3,51,295026.0,7,1,3,5,8,4,left,0,1,7,1,1,no,1,747.0
3,52,299403.0,7,8,3,6,4,5,left,0,1,8,8,8,no,1,724.0
3,53,303755.0,7,6,3,1,5,2,left,0,0,3,1,6,no,1,696.0
3,54,308036.0,7,4,3,2,1,6,left,0,0,4,8,4,no,1,984.0
3,55,312932.0,7,8,3,5,6,4,left,0,1,4,8,8,no,1,1292.0
3,56,317860.0,7,5,3,1,2,8,left,1,0,5,7,5,yes,1,771.0
3,57,322172.0,7,6,3,1,4,2,left,1,0,10,7,6,yes,1,902.0
3,58,326708.0,7,6,3,8,1,2,left,0,0,2,1,6,no,1,851.0
3,59,331211.0,7,1,3,2,6,5,left,0,0,11,6,1,no,1,722.0
3,60,335676.0,7,5,3,1,6,4,left,0,0,9,2,5,no,1,874.0
3,61,341748.0,1,8,5,6,4,7,left,1,0,1,5,8,yes,1,1005.0
3,62,346307.0,1,2,5,7,6,3,left,0,0,11,3,2,no,1,1175.0
3,63,351004.0,1,2,5,6,4,3,left,1,0,11,1,2,yes,1,668.0
3,64,355411.0,1,3,5,6,2,7,left,0,0,12,2,3,no,1,793.0
3,65,359916.0,1,6,5,7,8,4,left,1,0,3,5,6,yes,1,1668.0
3,66,365156.0,1,3,5,4,7,6,left,1,0,10,1,3,yes,1,588.0
3,67,369355.0,1,6,5,7,8,2,left,1,0,1,1,6,yes,1,879.0
3,68,373900.0,1,3,5,6,2,7,left,0,0,5,6,3,no,1,790.0
3,69,379772.0,8,1,3,2,5,6,left,0,0,6,6,1,no,1,756.0
3,70,384220.0,8,2,3,5,6,1,left,0,0,10,6,2,no,1,764.0
3,71,388613.0,8,1,3,7,4,5,left,0,0,10,6,1,no,1,695.0
3,72,392876.0,8,4,3,2,1,5,left,1,0,3,8,4,yes,1,647.0
3,73,397093.0,8,2,3,1,4,5,left,0,1,6,2,2,no,1,885.0
3,74,401852.0,8,6,3,4,5,2,left,1,0,6,3,6,yes,1,968.0
4,75,408917.0,7,6,4,8,3,1,right,0,1,3,6,6,no,1,845.0
4,76,413421.0,7,2,4,8,3,6,right,0,0,4,3,2,no,1,802.0
4,77,417884.0,7,8,4,6,3,5,right,0,0,3,2,8,no,1,658.0
4,78,422445.0,7,3,4,2,8,6,right,1,0,2,7,3,yes,1,424.0
4,79,426572.0,7,2,4,6,5,1,right,1,0,10,7,2,yes,1,493.0
4,80,430644.0,7,5,4,2,3,8,right,0,1,10,5,5,no,1,711.0
4,81,435092.0,7,6,4,3,5,1,right,1,0,11,4,6,no,0,866.0
4,82,439845.0,7,8,4,5,3,2,right,0,0,5,6,8,no,1,1053.0
4,83,444701.0,7,6,4,3,2,1,right,1,0,5,4,6,yes,1,1115.0
4,84,449589.0,7,3,4,8,2,6,right,1,0,10,7,3,yes,1,904.0
5,85,455755.0,3,6,2,8,5,4,left,1,0,2,3,6,none,0,1999.0
5,86,461306.0,3,5,2,4,7,1,left,0,0,11,6,5,no,1,994.0
5,87,466181.0,3,6,2,8,7,4,left,1,0,12,2,6,yes,1,854.0
5,88,470734.0,3,6,2,8,1,7,left,1,0,1,2,6,yes,1,896.0
5,89,475525.0,3,1,2,6,4,5,left,1,0,6,3,1,yes,1,617.0
5,90,479733.0,3,1,2,4,7,8,left,1,0,4,2,1,yes,1,1015.0
5,91,484662.0,3,6,2,7,4,5,left,1,0,4,3,6,yes,1,1062.0
5,92,489541.0,3,7,2,6,4,1,left,1,0,12,3,7,yes,1,609.0
6,93,495307.0,7,3,6,2,8,1,right,0,1,9,3,3,no,1,951.0
6,94,500069.0,7,1,6,8,2,4,right,0,0,7,5,1,yes,0,1212.0
6,95,505174.0,7,3,6,1,2,5,right,0,0,12,1,3,no,1,741.0
6,96,509742.0,7,2,6,4,1,3,right,1,0,3,7,2,yes,1,581.0
6,97,513862.0,7,2,6,5,1,4,right,0,0,12,3,2,no,1,746.0
6,98,518493.0,7,5,6,3,2,1,right,1,0,7,6,5,yes,1,1071.0
6,99,523383.0,7,2,6,8,5,3,right,1,0,7,7,2,yes,1,596.0
6,100,527661.0,7,4,6,1,2,8,right,1,0,4,7,4,yes,1,586.0
6,101,532030.0,7,2,6,1,5,4,right,0,0,10,3,2,no,1,786.0
6,102,536430.0,7,5,6,3,1,4,right,0,0,9,4,5,no,1,1183.0
7,103,542956.0,4,2,5,8,6,3,left,1,0,12,5,2,yes,1,642.0
7,104,547150.0,4,7,5,3,8,6,left,0,0,9,2,7,no,1,902.0
7,105,551710.0,4,8,5,3,1,7,left,0,0,10,7,8,no,1,817.0
7,106,556262.0,4,7,5,3,8,6,left,1,0,2,4,7,yes,1,921.0
7,107,560935.0,4,1,5,6,7,3,left,1,0,12,5,1,yes,1,557.0
7,108,565199.0,4,2,5,8,6,1,left,0,0,11,3,2,no,1,967.0
7,109,569999.0,4,6,5,3,8,7,left,1,0,4,5,6,yes,1,633.0
7,110,574470.0,4,7,5,2,8,3,left,1,0,1,4,7,yes,1,689.0
7,111,578935.0,4,2,5,8,1,6,left,1,0,11,4,2,yes,1,589.0
7,112,583309.0,4,3,5,1,6,2,left,1,0,12,4,3,yes,1,572.0
8,113,589069.0,8,5,6,3,4,1,right,0,0,9,2,5,no,1,859.0
8,114,593751.0,8,5,6,2,7,4,right,0,1,1,5,5,no,1,908.0
8,115,598535.0,8,2,6,3,7,4,right,1,0,1,8,2,yes,1,630.0
8,116,602967.0,8,3,6,7,5,4,right,0,0,7,5,3,no,1,824.0
8,117,607407.0,8,1,6,2,5,7,right,1,0,5,8,1,yes,1,737.0
8,118,611950.0,8,4,6,5,3,7,right,0,0,9,2,4,no,1,820.0
8,119,616503.0,8,1,6,2,7,3,right,1,0,5,6,1,yes,1,877.0
8,120,621031.0,8,5,6,3,1,7,right,1,0,7,8,5,yes,1,803.0
8,121,625679.0,8,3,6,4,7,1,right,1,0,1,8,3,yes,1,510.0
8,122,629920.0,8,1,6,3,2,5,right,1,0,5,8,1,yes,1,548.0
9,123,638022.0,1,3,4,7,2,8,left,1,0,5,4,3,yes,1,617.0
9,124,642200.0,1,6,4,7,2,5,left,0,0,12,8,6,no,1,782.0
9,125,646768.0,1,6,4,3,2,5,left,0,0,11,2,6,yes,0,378.0
9,126,650672.0,1,8,4,2,6,5,left,1,0,12,1,8,yes,1,440.0
9,127,654688.0,1,3,4,2,5,6,left,1,0,6,4,3,yes,1,561.0
9,128,658968.0,1,5,4,8,7,2,left,1,0,5,4,5,yes,1,808.0
9,129,663672.0,1,3,4,6,7,2,left,0,1,8,3,3,no,1,936.0
9,130,668472.0,1,3,4,6,7,2,left,0,0,8,5,3,no,1,840.0
9,131,674390.0,3,7,6,4,8,1,left,0,0,11,2,7,no,1,1080.0
9,132,679064.0,3,5,6,1,4,2,left,1,0,4,3,5,yes,1,1154.0
9,133,683888.0,3,8,6,4,7,2,left,1,0,1,3,8,yes,1,649.0
9,134,688360.0,3,1,6,8,7,5,left,1,0,6,3,1,yes,1,549.0
9,135,692784.0,3,4,6,2,5,1,left,1,0,12,3,4,yes,1,441.0
9,136,696920.0,3,2,6,7,8,4,left,0,1,6,2,2,no,1,782.0
9,137,701441.0,3,1,6,8,5,7,left,1,0,9,6,1,yes,1,653.0
9,138,705904.0,3,5,6,1,4,7,left,1,0,11,6,5,yes,1,735.0
9,139,710273.0,3,1,6,5,8,7,left,0,0,2,5,1,yes,0,692.0
9,140,714521.0,3,1,6,2,8,5,left,0,0,1,5,1,no,1,888.0
9,141,720808.0,4,1,2,3,7,5,left,0,0,12,6,1,no,1,1261.0
9,142,725609.0,4,7,2,8,3,5,left,0,0,9,8,7,none,0,1999.0
9,143,731235.0,4,8,2,6,1,5,left,1,0,11,4,8,yes,1,699.0
9,144,735769.0,4,6,2,1,3,7,left,0,0,12,8,6,no,1,1041.0
9,145,740666.0,4,6,2,3,1,8,left,1,0,5,2,6,yes,1,611.0
9,146,744897.0,4,7,2,8,5,6,left,1,0,9,4,7,yes,1,1190.0
9,147,749640.0,4,5,2,1,3,8,left,1,0,2,2,5,yes,1,453.0
9,148,753737.0,4,6,2,5,7,1,left,1,0,5,2,6,yes,1,805.0
10,149,759680.0,7,2,6,8,4,3,right,0,0,12,3,2,no,1,798.0
10,150,764266.0,7,3,6,8,1,2,right,0,1,3,3,3,no,1,1012.0
10,151,769017.0,7,1,6,2,5,4,right,0,0,7,4,1,no,1,687.0
10,152,773570.0,7,4,6,1,8,5,right,0,0,9,2,4,no,1,771.0
10,153,778256.0,7,1,6,3,8,2,right,1,0,4,7,1,yes,1,606.0
10,154,782521.0,7,1,6,4,5,2,right,0,0,9,8,1,no,1,964.0
10,155,787226.0,7,1,6,2,3,5,right,1,0,7,7,1,yes,1,578.0
10,156,791514.0,7,1,6,2,4,3,right,1,0,8,7,1,yes,1,587.0
10,157,795665.0,7,1,6,2,4,8,right,0,0,10,4,1,none,0,1999.0
10,158,801188.0,7,2,6,4,5,3,right,0,1,3,2,2,no,1,770.0
11,159,807057.0,5,4,1,8,3,7,left,1,0,5,1,4,yes,1,1094.0
11,160,811801.0,5,6,1,2,4,7,left,1,0,1,1,6,yes,1,896.0
11,161,816242.0,5,6,1,3,2,4,left,0,0,4,2,6,no,1,995.0
11,162,820936.0,5,3,1,2,6,8,left,0,0,3,2,3,no,1,719.0
11,163,825210.0,5,3,1,8,2,4,left,0,1,2,3,3,no,1,889.0
11,164,829923.0,5,7,1,2,3,4,left,1,0,12,5,7,yes,1,581.0
11,165,834178.0,5,2,1,6,4,3,left,1,0,12,5,2,yes,1,681.0
11,166,838387.0,5,3,1,8,4,7,left,0,0,4,4,3,no,1,729.0
11,167,842683.0,5,4,1,8,2,6,left,0,0,2,7,4,no,1,1181.0
11,168,847626.0,5,8,1,3,6,7,left,1,0,1,5,8,yes,1,465.0
11,169,854442.0,2,1,4,8,3,6,left,1,0,7,4,1,yes,1,753.0
11,170,859067.0,2,3,4,7,6,1,left,0,1,5,3,3,no,1,830.0
11,171,863579.0,2,7,4,5,6,8,left,1,0,12,2,7,yes,1,566.0
11,172,867937.0,2,5,4,6,8,7,left,1,0,8,4,5,yes,1,858.0
11,173,872419.0,2,3,4,6,5,7,left,1,0,10,4,3,yes,1,687.0
11,174,876834.0,2,1,4,5,3,6,left,0,1,4,1,1,no,1,912.0
11,175,881347.0,2,5,4,1,3,8,left,0,0,10,7,5,no,1,658.0
11,176,885907.0,2,6,4,3,5,7,left,1,0,8,2,6,yes,1,423.0
11,177,891362.0,6,8,1,2,3,5,left,1,0,11,6,8,no,0,1289.0
11,178,896235.0,6,5,1,7,4,8,left,0,0,7,3,5,no,1,1208.0
11,179,901235.0,6,5,1,3,7,8,left,0,0,3,8,5,no,1,1153.0
11,180,906236.0,6,5,1,7,4,2,left,1,0,3,6,5,yes,1,648.0
11,181,910747.0,6,4,1,8,2,7,left,0,1,2,4,4,no,1,1529.0
11,182,916115.0,6,2,1,5,7,8,left,1,0,3,6,2,yes,1,966.0
12,183,922259.0,7,3,2,6,4,5,right,1,0,7,7,3,no,0,712.0
12,184,926548.0,7,6,2,3,8,4,right,0,0,12,4,6,yes,0,1887.0
12,185,932348.0,7,1,2,3,5,4,right,1,0,12,2,1,yes,1,891.0
12,186,937012.0,7,6,2,3,8,5,right,1,0,4,7,6,yes,1,605.0
12,187,941532.0,7,8,2,1,6,3,right,0,0,11,5,8,no,1,928.0
12,188,946364.0,7,5,2,4,8,3,right,0,0,3,6,5,no,1,865.0
12,189,950772.0,7,5,2,8,4,6,right,1,0,1,7,5,yes,1,433.0
12,190,954836.0,7,8,2,3,5,4,right,1,0,2,2,8,yes,1,1143.0
12,191,959683.0,7,4,2,1,5,8,right,0,0,12,1,4,no,1,832.0
12,192,964196.0,7,1,2,4,3,5,right,1,0,1,7,1,yes,1,571.0
12,193,969971.0,6,3,5,1,7,2,right,0,0,5,7,3,no,1,1068.0
12,194,974772.0,6,7,5,3,8,1,right,0,0,11,8,7,no,1,889.0
12,195,979412.0,6,4,5,8,1,2,right,1,0,1,6,4,yes,1,569.0
12,196,983779.0,6,4,5,3,2,7,right,1,0,4,6,4,yes,1,563.0
12,197,988068.0,6,2,5,3,4,8,right,0,0,8,1,2,no,1,770.0
12,198,992668.0,6,2,5,1,3,8,right,1,0,11,6,2,yes,1,563.0
12,199,997068.0,6,4,5,1,2,3,right,1,0,7,5,4,yes,1,830.0
12,200,1001693.0,6,8,5,2,1,4,right,1,0,7,6,8,yes,1,820.0
12,201,1006229.0,6,8,5,4,3,1,right,0,1,3,8,8,no,1,783.0
12,202,1010653.0,6,1,5,3,4,8,right,1,0,1,6,1,yes,1,526.0
12,203,1016213.0,2,5,8,3,4,7,right,0,0,5,6,5,no,1,838.0
12,204,1020596.0,2,1,8,5,3,6,right,0,0,5,7,1,no,1,694.0
12,205,1025101.0,2,6,8,7,4,3,right,0,0,3,7,6,no,1,959.0
12,206,1029628.0,2,4,8,7,1,6,right,0,0,8,6,4,no,1,1080.0
12,207,1034517.0,2,4,8,7,1,5,right,0,0,3,7,4,no,1,1299.0
12,208,1039453.0,2,3,8,6,1,4,right,1,0,10,2,3,yes,1,533.0
12,209,1046766.0,6,4,5,3,7,8,right,0,0,5,2,4,yes,0,476.0
12,210,1050796.0,6,4,5,8,2,3,right,0,0,4,1,4,no,1,879.0
12,211,1055414.0,6,2,5,4,8,7,right,1,0,6,6,2,yes,1,496.0
12,212,1059589.0,6,1,5,4,7,2,right,0,0,5,7,1,no,1,755.0
12,213,1063877.0,6,4,5,1,3,8,right,1,0,11,6,4,yes,1,843.0
12,214,1068566.0,6,7,5,2,1,4,right,1,0,5,6,7,yes,1,554.0
12,215,1072942.0,6,3,5,7,2,4,right,0,0,8,7,3,no,1,790.0
12,216,1077301.0,6,2,5,8,7,3,right,1,0,12,6,2,yes,1,556.0
12,217,1082941.0,4,6,7,3,1,5,right,1,0,11,4,6,yes,1,493.0
12,218,1087173.0,4,6,7,5,8,2,right,0,0,12,8,6,no,1,1036.0
12,219,1091830.0,4,5,7,3,1,8,right,0,0,6,2,5,no,1,921.0
12,220,1096478.0,4,3,7,8,1,6,right,1,0,2,4,3,yes,1,487.0
12,221,1100702.0,4,2,7,8,1,6,right,1,0,11,4,2,yes,1,805.0
12,222,1105238.0,4,6,7,8,1,3,right,1,0,10,4,6,yes,1,512.0
12,223,1109470.0,4,8,7,1,6,2,right,1,0,8,4,8,yes,1,472.0
12,224,1113814.0,4,6,7,8,5,1,right,0,0,1,2,6,no,1,858.0
13,225,1119862.0,5,1,6,4,2,8,left,0,0,3,3,1,no,1,818.0
13,226,1124230.0,5,1,6,8,2,7,left,1,0,7,5,1,yes,1,847.0
13,227,1128783.0,5,7,6,4,3,2,left,0,0,6,8,7,no,1,820.0
13,228,1133470.0,5,2,6,3,7,8,left,0,0,8,1,2,no,1,781.0
13,229,1137862.0,5,8,6,7,1,4,left,0,0,8,1,8,no,1,642.0
13,230,1142407.0,5,7,6,2,1,4,left,0,0,9,8,7,no,1,613.0
14,231,1148182.0,8,6,7,4,1,2,right,1,0,8,7,6,yes,1,610.0
14,232,1152527.0,8,2,7,4,5,6,right,0,1,10,2,2,no,1,702.0
14,233,1156943.0,8,5,7,4,3,2,right,0,1,12,5,5,no,1,659.0
14,234,1161463.0,8,1,7,5,6,4,right,1,0,2,7,1,yes,1,586.0
14,235,1165870.0,8,5,7,2,4,3,right,1,0,3,8,5,yes,1,601.0
14,236,1170159.0,8,2,7,1,4,6,right,0,0,7,3,2,no,1,786.0
15,237,1176046.0,4,1,5,6,3,8,left,1,0,4,5,1,yes,1,1679.0
15,238,1181351.0,4,8,5,7,3,6,left,0,0,3,3,8,no,1,821.0
15,239,1185879.0,4,1,5,7,8,3,left,1,0,5,5,1,yes,1,751.0
15,240,1190520.0,4,2,5,8,1,6,left,0,0,3,3,2,no,1,875.0
15,241,1194919.0,4,6,5,1,2,3,left,0,0,5,3,6,no,1,768.0
15,242,1199600.0,4,3,5,2,6,1,left,1,0,8,4,3,no,0,884.0
15,243,1204352.0,4,7,5,1,6,8,left,1,0,4,5,7,yes,1,617.0
15,244,1208688.0,4,1,5,2,7,6,left,0,0,10,3,1,no,1,835.0
15,245,1213176.0,4,7,5,8,1,2,left,0,0,4,8,7,no,1,794.0
15,246,1217584.0,4,2,5,1,8,7,left,1,0,12,5,2,yes,1,690.0
15,247,1224439.0,1,4,7,2,3,6,left,1,0,8,7,4,yes,1,960.0
15,248,1229144.0,1,4,7,6,5,3,left,0,0,1,6,4,no,1,1253.0
15,249,1234144.0,1,8,7,6,2,4,left,0,0,6,6,8,no,1,1020.0
15,250,1238951.0,1,6,7,8,5,3,left,1,0,9,7,6,yes,1,626.0
15,251,1243191.0,1,5,7,8,2,6,left,0,1,3,5,5,no,1,752.0
15,252,1247720.0,1,4,7,3,6,2,left,0,0,3,2,4,no,1,747.0
15,253,1252336.0,1,4,7,8,5,3,left,1,0,9,1,4,yes,1,554.0
15,254,1256776.0,1,6,7,4,8,3,left,1,0,3,7,6,yes,1,580.0
15,255,1262575.0,2,3,8,1,6,5,left,1,0,2,8,3,no,0,1686.0
15,256,1268016.0,2,3,8,1,6,7,left,1,0,2,8,3,yes,1,1590.0
15,257,1273192.0,2,1,8,7,5,3,left,0,0,7,7,1,no,1,861.0
15,258,1277584.0,2,4,8,1,7,6,left,0,1,9,4,4,no,1,931.0
15,259,1282305.0,2,4,8,1,5,3,left,0,0,10,6,4,no,1,630.0
15,260,1286848.0,2,1,8,5,3,6,left,1,0,3,2,1,yes,1,574.0
15,261,1291081.0,2,4,8,7,1,3,left,1,0,6,8,4,yes,1,463.0
15,262,1295337.0,2,5,8,3,6,1,left,1,0,10,2,5,yes,1,441.0
15,263,1299368.0,2,6,8,1,3,5,left,1,0,7,8,6,yes,1,408.0
15,264,1303664.0,2,1,8,4,7,5,left,1,0,3,8,1,yes,1,680.0
16,265,1309463.0,4,8,1,3,2,7,right,1,0,6,4,8,yes,1,973.0
16,266,1314097.0,4,7,1,2,5,8,right,0,1,7,7,7,no,1,928.0
16,267,1318921.0,4,8,1,2,7,5,right,1,0,10,4,8,yes,1,753.0
16,268,1323439.0,4,6,1,7,3,8,right,0,0,9,7,6,no,1,696.0
16,269,1327978.0,4,8,1,3,2,7,right,1,0,1,1,8,yes,1,898.0
16,270,1332441.0,4,5,1,6,7,3,right,0,0,12,6,5,no,1,686.0
16,271,1338177.0,5,8,3,6,4,7,right,1,0,9,3,8,no,0,699.0
16,272,1342601.0,5,1,3,4,6,7,right,0,1,3,1,1,no,1,925.0
16,273,1347064.0,5,2,3,8,1,6,right,0,1,6,2,2,no,1,1325.0
16,274,1352305.0,5,4,3,1,7,6,right,0,0,6,1,4,no,1,915.0
16,275,1356993.0,5,1,3,7,8,2,right,1,0,9,3,1,yes,1,946.0
16,276,1361761.0,5,4,3,2,1,8,right,0,0,6,2,4,no,1,1045.0
16,277,1366665.0,5,7,3,1,2,6,right,0,0,4,8,7,no,1,911.0
16,278,1371225.0,5,4,3,8,7,2,right,1,0,6,3,4,yes,1,824.0
17,279,1377264.0,4,2,7,6,5,8,left,1,0,2,4,2,yes,1,782.0
17,280,1381953.0,4,8,7,6,2,1,left,1,0,8,7,8,yes,1,578.0
17,281,1386066.0,4,5,7,3,1,2,left,1,0,1,4,5,yes,1,521.0
17,282,1390202.0,4,3,7,1,2,8,left,0,0,9,1,3,no,1,909.0
17,283,1395026.0,4,2,7,1,5,8,left,0,1,10,2,2,no,1,726.0
17,284,1399515.0,4,3,7,8,6,2,left,0,0,12,5,3,no,1,1508.0
17,285,1404842.0,4,3,7,1,8,6,left,0,0,5,6,3,no,1,1148.0
17,286,1409723.0,4,5,7,6,3,2,left,1,0,12,4,5,no,0,1783.0
17,287,1421899.0,5,8,2,1,3,7,left,1,0,12,2,8,no,0,656.0
17,288,1426451.0,5,7,2,4,1,8,left,1,0,11,2,7,yes,1,502.0
17,289,1430555.0,5,3,2,1,6,7,left,1,0,10,5,3,yes,1,409.0
17,290,1434530.0,5,8,2,4,3,6,left,1,0,1,2,8,yes,1,468.0
17,291,1438635.0,5,6,2,1,4,7,left,0,0,10,1,6,no,1,1168.0
17,292,1443522.0,5,3,2,7,6,4,left,0,0,11,1,3,no,1,790.0
17,293,1448139.0,5,1,2,7,4,6,left,0,0,7,8,1,no,1,831.0
17,294,1452602.0,5,3,2,4,1,6,left,1,0,5,2,3,yes,1,1249.0
17,295,1459082.0,1,7,8,2,6,4,left,1,0,8,1,7,yes,1,575.0
17,296,1463204.0,1,3,8,6,5,4,left,1,0,2,8,3,yes,1,571.0
17,297,1467619.0,1,7,8,5,2,6,left,1,0,7,1,7,yes,1,506.0
17,298,1471755.0,1,2,8,6,3,7,left,1,0,5,1,2,yes,1,445.0
17,299,1476100.0,1,2,8,4,6,5,left,1,0,3,1,2,yes,1,645.0
17,300,1480635.0,1,6,8,4,7,3,left,0,0,2,4,6,no,1,941.0
17,301,1485458.0,1,2,8,6,3,5,left,1,0,5,1,2,yes,1,1057.0
17,302,1490068.0,1,5,8,7,3,2,left,1,0,2,8,5,yes,1,511.0
18,303,1495738.0,5,3,2,7,4,8,right,0,0,8,1,3,no,1,861.0
18,304,1500443.0,5,4,2,7,8,6,right,1,0,11,5,4,yes,1,649.0
18,305,1504949.0,5,4,2,1,8,7,right,0,1,8,4,4,none,0,1999.0
18,306,1510677.0,5,8,2,6,3,4,right,1,0,10,5,8,yes,1,502.0
18,307,1514972.0,5,8,2,7,1,4,right,1,0,10,2,8,yes,1,508.0
18,308,1519060.0,5,1,2,3,4,8,right,0,0,11,7,1,no,1,767.0
18,309,1523548.0,5,6,2,4,1,7,right,1,0,12,5,6,yes,1,456.0
18,310,1527636.0,5,8,2,7,3,1,right,1,0,3,2,8,yes,1,1029.0
19,311,1533883.0,8,3,7,6,5,2,left,1,0,8,8,3,yes,1,949.0
19,312,1538548.0,8,4,7,2,5,1,left,0,1,2,4,4,no,1,1767.0
19,313,1544092.0,8,2,7,5,4,3,left,1,0,7,7,2,yes,1,849.0
19,314,1548804.0,8,2,7,3,4,1,left,0,0,1,1,2,no,1,819.0
19,315,1553188.0,8,1,7,2,4,5,left,1,0,2,8,1,yes,1,623.0
19,316,1557572.0,8,6,7,5,3,2,left,0,0,10,2,6,no,1,616.0
19,317,1563453.0,4,2,6,5,7,8,left,0,0,4,5,2,yes,0,962.0
19,318,1568091.0,4,5,6,1,2,3,left,1,0,4,4,5,yes,1,587.0
19,319,1572252.0,4,5,6,1,2,3,left,0,0,2,1,5,no,1,1034.0
19,320,1576973.0,4,8,6,7,1,3,left,0,0,9,5,8,no,1,722.0
19,321,1581603.0,4,5,6,2,1,7,left,1,0,11,4,5,yes,1,610.0
19,322,1585733.0,4,8,6,3,2,7,left,0,0,8,5,8,no,1,892.0
19,323,1590172.0,4,2,6,8,3,1,left,1,0,10,6,2,yes,1,433.0
19,324,1594429.0,4,8,6,3,1,5,left,0,0,12,1,8,no,1,744.0
20,325,1601459.0,3,2,1,6,4,8,right,0,0,4,7,2,no,1,809.0
20,326,1606004.0,3,4,1,5,2,6,right,0,0,1,7,4,no,1,1165.0
20,327,1610876.0,3,6,1,2,5,8,right,0,0,4,8,6,no,1,1018.0
20,328,1615429.0,3,8,1,5,6,4,right,1,0,1,1,8,yes,1,873.0
20,329,1620052.0,3,4,1,7,2,8,right,0,0,12,2,4,no,1,663.0
20,330,1624565.0,3,6,1,5,7,4,right,1,0,6,3,6,none,0,1999.0
20,331,1630132.0,3,6,1,5,2,8,right,0,0,11,7,6,no,1,771.0
20,332,1634693.0,3,5,1,2,8,6,right,0,1,11,5,5,no,1,1661.0
20,333,1640188.0,3,6,1,4,2,5,right,1,0,8,3,6,yes,1,1650.0
20,334,1645702.0,3,2,1,7,4,8,right,1,0,5,1,2,yes,1,605.0
21,335,1651396.0,2,8,6,7,5,1,left,1,0,3,6,8,yes,1,565.0
21,336,1655677.0,2,5,6,3,7,8,left,0,1,2,5,5,no,1,1349.0
21,337,1660598.0,2,3,6,4,5,7,left,1,0,7,2,3,no,0,1529.0
21,338,1665974.0,2,1,6,7,3,5,left,0,0,10,4,1,no,1,1770.0
21,339,1671422.0,2,1,6,7,8,3,left,0,0,9,3,1,no,1,849.0
21,340,1675799.0,2,3,6,1,5,4,left,1,0,7,2,3,yes,1,556.0
21,341,1680109.0,2,5,6,3,4,8,left,0,0,2,7,5,no,1,879.0
21,342,1684542.0,2,1,6,4,3,8,left,1,0,8,2,1,yes,1,524.0
22,343,1690341.0,5,4,8,3,6,2,right,1,0,2,8,4,yes,1,671.0
22,344,1694839.0,5,3,8,7,4,6,right,0,1,4,3,3,no,1,879.0
22,345,1699390.0,5,2,8,6,1,3,right,0,0,8,7,2,no,1,945.0
22,346,1704038.0,5,1,8,4,3,6,right,0,0,9,2,1,no,1,1040.0
22,347,1708798.0,5,2,8,3,6,4,right,0,1,7,2,2,no,1,711.0
22,348,1713406.0,5,3,8,6,4,7,right,1,0,7,5,3,yes,1,530.0
22,349,1719214.0,7,1,4,2,5,8,right,0,0,2,6,1,no,1,955.0
22,350,1723950.0,7,6,4,5,3,8,right,1,0,12,7,6,yes,1,481.0
22,351,1727958.0,7,8,4,2,3,5,right,1,0,9,7,8,yes,1,839.0
22,352,1732359.0,7,3,4,5,1,6,right,1,0,4,7,3,yes,1,530.0
22,353,1736750.0,7,6,4,8,5,2,right,0,1,6,6,6,no,1,1423.0
22,354,1741759.0,7,5,4,3,2,8,right,0,0,7,6,5,no,1,1771.0
22,355,1747118.0,7,8,4,1,6,2,right,0,0,4,3,8,none,0,1999.0
22,356,1752722.0,7,3,4,8,2,5,right,1,0,10,7,3,yes,1,725.0
22,357,1757334.0,7,3,4,2,6,8,right,1,0,4,7,3,yes,1,599.0
22,358,1761647.0,7,6,4,8,1,5,right,1,0,7,4,6,yes,1,523.0
22,359,1767413.0,2,1,6,8,7,4,right,1,0,4,6,1,yes,1,977.0
22,360,1772166.0,2,4,6,1,7,3,right,0,0,3,8,4,no,1,570.0
22,361,1776487.0,2,4,6,8,1,3,right,1,0,9,2,4,yes,1,432.0
22,362,1780527.0,2,4,6,5,3,7,right,0,1,10,4,4,no,1,752.0
22,363,1785167.0,2,7,6,4,1,8,right,0,0,4,5,7,no,1,643.0
22,364,1789480.0,2,7,6,4,8,1,right,0,0,3,8,7,no,1,589.0
22,365,1793879.0,2,3,6,7,4,1,right,1,0,6,6,3,yes,1,623.0
22,366,1798247.0,2,3,6,4,1,5,right,1,0,2,2,3,yes,1,497.0
22,367,1802502.0,2,8,6,3,1,4,right,1,0,3,2,8,yes,1,507.0
22,368,1806568.0,2,3,6,8,7,1,right,0,0,5,4,3,no,1,598.0
23,369,1814474.0,7,6,1,3,5,8,left,0,0,4,3,6,no,1,958.0
23,370,1819304.0,7,3,1,5,4,6,left,0,0,3,8,3,no,1,791.0
23,371,1823696.0,7,5,1,8,6,4,left,0,0,7,2,5,no,1,1102.0
23,372,1828632.0,7,8,1,2,6,5,left,0,0,5,4,8,no,1,835.0
23,373,1833168.0,7,5,1,6,3,8,left,0,1,8,5,5,no,1,690.0
23,374,1837608.0,7,6,1,5,4,3,left,1,0,1,1,6,yes,1,732.0
23,375,1842008.0,7,8,1,4,2,3,left,1,0,5,1,8,yes,1,675.0
23,376,1846560.0,7,4,1,8,5,2,left,1,0,6,7,4,yes,1,1469.0
23,377,1853311.0,3,6,4,2,7,8,left,0,1,6,6,6,none,0,1999.0
23,378,1858831.0,3,6,4,7,1,2,left,1,0,9,3,6,yes,1,1408.0
23,379,1864016.0,3,5,4,6,8,7,left,1,0,4,4,5,yes,1,813.0
23,380,1868616.0,3,7,4,8,1,6,left,0,0,8,8,7,no,1,715.0
23,381,1872976.0,3,1,4,2,7,8,left,1,0,10,3,1,yes,1,480.0
23,382,1876992.0,3,5,4,6,1,2,left,0,1,8,5,5,yes,0,416.0
23,383,1880985.0,3,8,4,2,1,7,left,1,0,1,3,8,yes,1,843.0
23,384,1885608.0,3,5,4,8,6,7,left,1,0,7,4,5,yes,1,514.0
24,385,1891144.0,8,4,1,3,2,5,right,0,0,2,7,4,no,1,891.0
24,386,1895585.0,8,2,1,4,5,3,right,1,0,6,8,2,yes,1,621.0
24,387,1899920.0,8,6,1,7,2,4,right,0,0,11,7,6,no,1,806.0
24,388,1904529.0,8,5,1,7,6,2,right,0,0,8,3,5,no,1,820.0
24,389,1909201.0,8,2,1,6,5,7,right,0,0,7,4,2,no,1,783.0
24,390,1913657.0,8,5,1,6,7,4,right,0,0,5,6,5,no,1,711.0
25,391,1919634.0,6,8,3,2,5,7,left,1,0,12,3,8,yes,1,1141.0
25,392,1924506.0,6,2,3,5,4,8,left,1,0,9,6,2,yes,1,607.0
25,393,1928817.0,6,2,3,8,7,1,left,1,0,8,6,2,yes,1,752.0
25,394,1933090.0,6,7,3,5,1,4,left,1,0,11,6,7,yes,1,521.0
25,395,1937169.0,6,2,3,7,1,4,left,0,0,4,8,2,no,1,1144.0
25,396,1941857.0,6,8,3,5,2,7,left,0,0,8,1,8,no,1,642.0
25,397,1946226.0,6,7,3,4,2,1,left,0,0,11,2,7,no,1,1043.0
25,398,1951121.0,6,1,3,5,4,2,left,1,0,8,3,1,none,0,1999.0
25,399,1958372.0,8,2,5,7,1,6,left,0,0,8,3,2,no,1,828.0
25,400,1962882.0,8,6,5,4,7,2,left,0,0,10,1,6,no,1,744.0
25,401,1967505.0,8,3,5,2,7,1,left,1,0,8,5,3,none,0,1998.0
25,402,1973298.0,8,4,5,1,6,7,left,1,0,1,8,4,none,0,1999.0
25,403,1979086.0,8,2,5,4,3,6,left,0,0,12,6,2,no,1,962.0
25,404,1983787.0,8,6,5,7,1,3,left,1,0,12,5,6,yes,1,738.0
25,405,1988220.0,8,6,5,2,4,7,left,1,0,1,5,6,yes,1,710.0
25,406,1992547.0,8,4,5,2,7,3,left,0,0,10,3,4,no,1,888.0
25,407,1997322.0,8,7,5,6,4,3,left,0,0,5,1,7,no,1,896.0
25,408,2002083.0,8,3,5,7,6,1,left,1,0,7,8,3,yes,1,562.0
26,409,2012859.0,2,7,4,3,5,8,right,0,1,5,7,7,no,1,668.0
26,410,2017362.0,2,8,4,6,5,3,right,0,0,3,1,8,yes,0,766.0
26,411,2021914.0,2,5,4,6,3,7,right,0,1,9,5,5,no,1,1076.0
26,412,2026747.0,2,3,4,7,5,8,right,0,0,5,7,3,no,1,854.0
26,413,2031378.0,2,6,4,3,7,5,right,1,0,10,2,6,yes,1,683.0
26,414,2035883.0,2,6,4,7,8,3,right,0,0,11,1,6,no,1,896.0
26,415,2040587.0,2,7,4,3,1,6,right,0,1,1,7,7,no,1,769.0
26,416,2044875.0,2,8,4,5,7,1,right,0,0,5,7,8,no,1,920.0
26,417,2051130.0,5,3,7,4,8,1,right,1,0,3,5,3,no,0,782.0
26,418,2055450.0,5,8,7,4,6,2,right,1,0,6,7,8,yes,1,852.0
26,419,2060107.0,5,6,7,2,1,8,right,0,0,5,1,6,no,1,755.0
26,420,2064755.0,5,1,7,6,8,4,right,0,0,1,4,1,no,1,852.0
26,421,2069434.0,5,8,7,3,4,6,right,0,0,10,2,8,none,0,1999.0
26,422,2075328.0,5,2,7,8,6,1,right,1,0,11,5,2,no,0,1948.0
26,423,2081067.0,5,1,7,4,6,2,right,0,0,12,4,1,no,1,720.0
26,424,2085459.0,5,6,7,3,4,1,right,0,0,11,4,6,no,1,808.0
27,425,2091394.0,8,1,4,6,3,7,left,0,0,7,7,1,no,1,707.0
27,426,2095780.0,8,6,4,5,2,1,left,0,0,1,2,6,no,1,519.0
27,427,2099940.0,8,7,4,5,6,1,left,1,0,4,4,7,yes,1,701.0
27,428,2104372.0,8,7,4,3,2,6,left,0,0,7,5,7,none,0,1998.0
27,429,2110004.0,8,3,4,6,5,1,left,0,0,4,7,3,no,1,689.0
27,430,2114412.0,8,6,4,3,2,5,left,1,0,11,8,6,yes,1,531.0
27,431,2118851.0,8,1,4,6,7,2,left,0,0,10,2,1,no,1,629.0
27,432,2123180.0,8,3,4,5,1,2,left,1,0,5,4,3,yes,1,702.0
27,433,2127724.0,8,7,4,6,2,1,left,1,0,9,8,7,yes,1,499.0
27,434,2132116.0,8,3,4,7,1,5,left,0,0,3,6,3,no,1,799.0
27,435,2138226.0,7,2,3,6,4,5,left,1,0,3,7,2,yes,1,1157.0
27,436,2143252.0,7,6,3,8,1,2,left,0,0,1,1,6,none,0,1999.0
27,437,2149006.0,7,8,3,5,6,1,left,1,0,4,7,8,yes,1,875.0
27,438,2153724.0,7,6,3,2,5,4,left,1,0,2,7,6,yes,1,641.0
27,439,2157957.0,7,8,3,5,4,1,left,1,0,2,7,8,yes,1,655.0
27,440,2162501.0,7,2,3,1,6,8,left,0,0,4,8,2,none,0,1999.0
28,441,2169772.0,2,1,8,3,6,7,right,1,0,2,2,1,yes,1,506.0
28,442,2174172.0,2,6,8,3,7,5,right,1,0,4,2,6,yes,1,1086.0
28,443,2179077.0,2,4,8,5,6,3,right,1,0,11,8,4,yes,1,516.0
28,444,2183149.0,2,7,8,3,6,5,right,0,0,5,6,7,no,1,683.0
28,445,2187493.0,2,4,8,6,1,3,right,0,0,11,5,4,none,0,1998.0
28,446,2193123.0,2,5,8,7,6,3,right,0,0,10,1,5,yes,0,875.0
29,447,2203040.0,3,7,1,6,8,4,left,1,0,11,1,7,no,0,855.0
29,448,2207652.0,3,5,1,8,6,2,left,0,0,3,4,5,no,1,665.0
29,449,2211853.0,3,7,1,6,2,4,left,0,0,9,8,7,no,1,736.0
29,450,2216349.0,3,5,1,6,2,4,left,0,0,9,6,5,no,1,676.0
29,451,2220621.0,3,7,1,6,8,4,left,1,0,10,1,7,yes,1,592.0
29,452,2225038.0,3,4,1,7,8,2,left,0,0,11,8,4,no,1,782.0
30,453,2230908.0,8,4,7,5,3,1,right,0,0,6,3,4,no,1,709.0
30,454,2235461.0,8,5,7,3,6,2,right,1,0,2,7,5,yes,1,558.0
30,455,2239932.0,8,1,7,3,6,4,right,0,0,10,4,1,none,0,1998.0
30,456,2245501.0,8,4,7,6,3,5,right,0,0,3,6,4,yes,0,936.0
30,457,2250054.0,8,6,7,1,3,4,right,1,0,11,7,6,no,0,698.0
30,458,2254406.0,8,5,7,2,4,1,right,1,0,12,7,5,no,0,864.0
31,459,2260405.0,5,7,3,4,6,1,left,1,0,12,5,7,yes,1,443.0
31,460,2264454.0,5,8,3,4,7,6,left,0,0,12,6,8,none,0,1998.0
31,461,2270303.0,5,8,3,2,1,4,left,0,0,1,6,8,yes,0,1826.0
31,462,2275701.0,5,8,3,2,4,1,left,0,0,11,1,8,no,1,990.0
31,463,2280598.0,5,8,3,6,4,7,left,1,0,2,5,8,yes,1,551.0
31,464,2284981.0,5,6,3,7,2,1,left,1,0,5,5,6,yes,1,1098.0
32,465,2291165.0,6,7,4,3,1,5,right,0,0,8,8,7,no,1,752.0
32,466,2295575.0,6,3,4,2,1,5,right,0,0,8,2,3,no,1,606.0
32,467,2299830.0,6,3,4,5,2,7,right,1,0,6,4,3,yes,1,666.0
32,468,2304102.0,6,7,4,2,8,3,right,0,0,2,1,7,no,1,609.0
32,469,2308239.0,6,8,4,3,2,1,right,1,0,1,6,8,yes,1,1076.0
32,470,2313222.0,6,1,4,2,5,3,right,1,0,3,6,1,yes,1,1065.0
33,471,2319438.0,1,4,2,6,3,8,left,0,0,12,3,4,no,1,879.0
33,472,2324039.0,1,3,2,6,5,4,left,1,0,4,2,3,yes,1,956.0
33,473,2328735.0,1,4,2,5,7,6,left,0,0,1,3,4,none,0,1998.0
33,474,2334475.0,1,7,2,6,4,5,left,0,0,2,5,7,no,1,814.0
33,475,2339111.0,1,7,2,6,4,3,left,1,0,2,1,7,yes,1,403.0
33,476,2343287.0,1,5,2,7,4,8,left,0,0,2,6,5,no,1,551.0
33,477,2347671.0,1,8,2,6,4,3,left,0,0,3,3,8,no,1,729.0
33,478,2352280.0,1,4,2,7,8,5,left,1,0,5,2,4,yes,1,1001.0
33,479,2356951.0,1,5,2,8,3,4,left,1,0,1,2,5,yes,1,905.0
33,480,2361663.0,1,5,2,8,3,7,left,1,0,1,1,5,none,0,1999.0
33,481,2372657.0,5,1,4,8,7,2,left,1,0,3,4,1,yes,1,943.0
33,482,2377144.0,5,1,4,3,6,8,left,0,0,12,3,1,no,1,711.0
33,483,2381383.0,5,2,4,7,6,1,left,1,0,9,4,2,yes,1,548.0
33,484,2385520.0,5,6,4,3,1,7,left,0,0,4,8,6,no,1,611.0
33,485,2389984.0,5,7,4,3,8,2,left,1,0,4,4,7,yes,1,776.0
33,486,2394288.0,5,1,4,8,6,2,left,0,0,7,3,1,no,1,684.0
33,487,2400245.0,7,1,6,3,5,8,left,0,0,5,5,1,no,1,1185.0
33,488,2405176.0,7,3,6,1,8,4,left,1,0,2,7,3,yes,1,724.0
33,489,2409528.0,7,4,6,5,8,2,left,1,0,2,7,4,none,0,1999.0
33,490,2415422.0,7,8,6,2,5,3,left,0,0,6,3,8,none,0,1999.0
33,491,2421126.0,7,3,6,2,5,8,left,0,1,11,3,3,no,1,657.0
33,492,2425566.0,7,8,6,3,4,1,left,0,0,8,5,8,no,1,1006.0
33,493,2431670.0,1,3,8,6,4,5,left,1,0,9,1,3,yes,1,504.0
33,494,2435911.0,1,6,8,2,3,4,left,0,0,9,2,6,no,1,750.0
33,495,2440233.0,1,2,8,4,6,7,left,0,0,9,3,2,no,1,599.0
33,496,2444568.0,1,4,8,2,3,5,left,0,0,11,5,4,no,1,516.0
33,497,2448648.0,1,6,8,3,7,4,left,0,0,3,4,6,no,1,1036.0
33,498,2453240.0,1,7,8,5,3,6,left,0,0,11,3,7,none,0,1998.0
33,499,2458842.0,1,5,8,2,6,4,left,1,0,8,1,5,yes,1,566.0
33,500,2463152.0,1,2,8,6,7,3,left,1,0,8,8,2,yes,1,524.0
34,501,2468984.0,6,3,7,8,4,1,right,1,0,4,6,3,no,0,966.0
34,502,2473721.0,6,1,7,5,3,2,right,0,0,9,2,1,none,0,1998.0
34,503,2479520.0,6,3,7,2,4,5,right,1,0,4,7,3,no,0,1196.0
34,504,2484305.0,6,5,7,8,3,1,right,0,0,4,4,5,no,1,724.0
34,505,2488697.0,6,2,7,8,3,4,right,0,0,2,8,2,no,1,797.0
34,506,2493049.0,6,8,7,2,5,1,right,1,0,2,7,8,yes,1,979.0
34,507,2497625.0,6,1,7,8,3,5,right,0,0,11,2,1,no,1,670.0
34,508,2501978.0,6,2,7,5,3,4,right,1,0,2,7,2,none,0,1999.0
34,509,2507519.0,6,2,7,8,3,1,right,1,0,9,6,2,yes,1,822.0
34,510,2512202.0,6,2,7,8,3,4,right,0,1,1,2,2,no,1,695.0
34,511,2518095.0,8,2,1,7,3,6,right,0,0,9,3,2,no,1,613.0
34,512,2522352.0,8,7,1,2,5,6,right,1,0,12,1,7,yes,1,1497.0
34,513,2527369.0,8,2,1,4,6,5,right,0,0,8,4,2,no,1,689.0
34,514,2531970.0,8,2,1,6,3,5,right,0,0,1,3,2,no,1,707.0
34,515,2536457.0,8,4,1,7,3,2,right,1,0,10,8,4,yes,1,604.0
34,516,2540898.0,8,4,1,6,2,5,right,1,0,10,1,4,none,0,1998.0
34,517,2546737.0,8,4,1,6,7,5,right,1,0,10,8,4,yes,1,1152.0
34,518,2551497.0,8,6,1,4,7,2,right,1,0,7,1,6,yes,1,1131.0
35,519,2559740.0,2,7,5,6,3,1,left,0,1,6,7,7,no,1,805.0
35,520,2564178.0,2,4,5,6,3,1,left,1,0,8,5,4,yes,1,809.0
35,521,2568738.0,2,8,5,3,1,7,left,0,0,6,3,8,no,1,951.0
35,522,2573346.0,2,4,5,3,8,6,left,1,0,3,5,4,yes,1,624.0
35,523,2577594.0,2,3,5,7,1,6,left,0,0,6,4,3,no,1,967.0
35,524,2582106.0,2,6,5,1,8,4,left,1,0,3,5,6,yes,1,547.0
36,525,2587706.0,3,6,8,1,2,4,right,0,0,7,4,6,yes,0,990.0
36,526,2592435.0,3,1,8,4,2,5,right,1,0,3,8,1,yes,1,835.0
36,527,2597154.0,3,5,8,6,1,7,right,1,0,7,8,5,yes,1,1127.0
36,528,2602185.0,3,5,8,6,1,4,right,1,0,10,8,5,yes,1,764.0
36,529,2606515.0,3,4,8,7,5,2,right,0,0,10,2,4,no,1,921.0
36,530,2611107.0,3,6,8,2,1,4,right,1,0,12,3,6,yes,1,595.0
36,531,2616761.0,4,7,2,5,1,6,right,1,0,5,4,7,yes,1,588.0
36,532,2621083.0,4,7,2,3,1,5,right,0,0,2,5,7,no,1,787.0
36,533,2625538.0,4,6,2,8,1,3,right,0,0,2,1,6,no,1,742.0
36,534,2629899.0,4,1,2,3,5,8,right,0,0,6,3,1,no,1,994.0
36,535,2634555.0,4,7,2,1,5,6,right,0,0,6,1,7,no,1,745.0
36,536,2638931.0,4,5,2,8,1,3,right,1,0,8,2,5,yes,1,825.0
36,537,2643468.0,4,6,2,8,5,7,right,1,0,12,4,6,yes,1,525.0
36,538,2647523.0,4,5,2,7,6,8,right,1,0,5,4,5,yes,1,1532.0
36,539,2654178.0,5,2,7,4,8,3,right,0,0,12,3,2,no,1,633.0
36,540,2658620.0,5,2,7,1,3,8,right,0,0,6,1,2,no,1,833.0
36,541,2663138.0,5,6,7,4,2,1,right,1,0,9,7,6,yes,1,995.0
36,542,2667891.0,5,3,7,6,4,8,right,1,0,12,7,3,yes,1,1072.0
36,543,2672483.0,5,1,7,2,4,6,right,1,0,5,7,1,yes,1,891.0
36,544,2677188.0,5,8,7,3,4,2,right,0,0,6,4,8,no,1,786.0
36,545,2681740.0,5,1,7,3,6,4,right,0,1,10,1,1,no,1,831.0
36,546,2686124.0,5,3,7,1,8,2,right,1,0,10,5,3,yes,1,602.0
36,547,2690356.0,5,2,7,3,6,8,right,0,0,9,1,2,none,0,1999.0
36,548,2696129.0,5,2,7,1,6,3,right,1,0,7,5,2,yes,1,559.0
37,549,2701891.0,8,3,1,5,6,2,left,0,0,9,2,3,yes,0,698.0
37,550,2706315.0,8,3,1,6,2,5,left,1,0,3,8,3,yes,1,590.0
37,551,2710604.0,8,4,1,2,5,7,left,1,0,8,8,4,yes,1,734.0
37,552,2715221.0,8,3,1,5,2,4,left,1,0,10,8,3,yes,1,546.0
37,553,2719404.0,8,4,1,7,6,5,left,1,0,6,8,4,yes,1,656.0
37,554,2723781.0,8,5,1,2,3,4,left,0,0,3,7,5,no,1,761.0
38,555,2732284.0,4,6,2,5,3,8,right,0,1,10,6,6,no,1,872.0
38,556,2736837.0,4,3,2,6,7,5,right,0,1,7,3,3,no,1,978.0
38,557,2741653.0,4,1,2,6,8,5,right,0,0,7,8,1,no,1,636.0
38,558,2745932.0,4,6,2,1,8,5,right,0,0,2,5,6,no,1,780.0
38,559,2750548.0,4,1,2,8,6,7,right,1,0,7,4,1,yes,1,863.0
38,560,2755173.0,4,3,2,1,8,6,right,0,0,10,8,3,no,1,838.0
38,561,2761324.0,1,7,8,6,4,2,right,1,0,7,1,7,yes,1,476.0
38,562,2765596.0,1,7,8,5,4,6,right,0,0,7,2,7,no,1,1323.0
38,563,2770731.0,1,4,8,2,5,3,right,1,0,2,1,4,yes,1,588.0
38,564,2774861.0,1,6,8,7,2,3,right,0,1,4,6,6,no,1,749.0
38,565,2779429.0,1,5,8,2,4,3,right,0,0,1,4,5,no,1,893.0
38,566,2784125.0,1,4,8,5,2,6,right,1,0,6,8,4,none,0,1999.0
38,567,2789877.0,1,4,8,5,2,6,right,1,0,3,1,4,yes,1,1250.0
38,568,2794924.0,1,7,8,5,4,3,right,1,0,3,8,7,yes,1,1018.0
38,569,2799797.0,1,4,8,2,7,3,right,0,1,7,4,4,no,1,728.0
38,570,2804149.0,1,3,8,2,7,5,right,1,0,7,8,3,yes,1,1743.0
39,571,2811180.0,5,8,3,2,1,4,left,0,0,9,4,8,yes,0,1089.0
39,572,2815925.0,5,8,3,1,4,7,left,0,1,3,8,8,no,1,763.0
39,573,2820358.0,5,7,3,2,1,4,left,1,0,1,5,7,yes,1,559.0
39,574,2824717.0,5,7,3,8,6,2,left,0,0,6,1,7,no,1,1195.0
39,575,2829685.0,5,2,3,1,4,7,left,0,0,7,6,2,yes,0,421.0
39,576,2833710.0,5,6,3,7,2,4,left,0,1,2,6,6,no,1,777.0
40,577,2839815.0,7,3,8,4,6,2,right,1,0,11,7,3,yes,1,667.0
40,578,2844302.0,7,4,8,1,3,5,right,0,1,3,4,4,no,1,769.0
40,579,2848669.0,7,2,8,6,1,4,right,1,0,10,8,2,no,0,1062.0
40,580,2853349.0,7,6,8,1,2,4,right,1,0,11,8,6,yes,1,969.0
40,581,2858046.0,7,6,8,5,3,4,right,0,0,1,2,6,no,1,602.0
40,582,2862174.0,7,1,8,2,6,4,right,1,0,11,8,1,yes,1,649.0
40,583,2866526.0,7,6,8,2,4,3,right,1,0,8,7,6,yes,1,500.0
40,584,2870670.0,7,3,8,2,4,1,right,1,0,2,7,3,yes,1,433.0
41,585,2876485.0,2,5,4,6,8,7,left,0,0,12,7,5,no,1,732.0
41,586,2881063.0,2,1,4,7,8,3,left,0,0,8,3,1,no,1,767.0
41,587,2885382.0,2,5,4,7,8,1,left,1,0,11,4,5,yes,1,582.0
41,588,2889599.0,2,5,4,3,7,1,left,1,0,11,4,5,yes,1,588.0
41,589,2893709.0,2,1,4,7,3,8,left,1,0,10,2,1,yes,1,461.0
41,590,2897749.0,2,8,4,1,6,7,left,1,0,11,4,8,yes,1,512.0
41,591,2901822.0,2,7,4,5,6,3,left,1,0,10,4,7,yes,1,476.0
41,592,2906175.0,2,3,4,5,8,6,left,1,0,9,2,3,yes,1,397.0
42,593,2913736.0,6,4,5,2,7,3,right,1,0,11,5,4,yes,1,587.0
42,594,2917999.0,6,4,5,2,3,8,right,1,0,9,6,4,yes,1,430.0
42,595,2922302.0,6,2,5,3,7,8,right,1,0,7,5,2,none,0,1998.0
42,596,2928060.0,6,4,5,1,2,8,right,1,0,7,5,4,yes,1,891.0
42,597,2932486.0,6,7,5,2,3,1,right,1,0,2,5,7,yes,1,609.0
42,598,2936831.0,6,1,5,3,4,8,right,1,0,11,6,1,yes,1,509.0
42,599,2940991.0,6,3,5,1,7,2,right,1,0,12,5,3,yes,1,610.0
42,600,2945215.0,6,4,5,3,7,1,right,0,1,8,4,4,none,0,1998.0
43,601,2952269.0,7,6,2,1,3,5,left,1,0,10,7,6,yes,1,529.0
43,602,2956464.0,7,4,2,6,1,5,left,1,0,11,7,4,yes,1,417.0
43,603,2960727.0,7,3,2,4,5,1,left,1,0,11,2,3,yes,1,1187.0
43,604,2965560.0,7,3,2,8,6,1,left,1,0,3,7,3,yes,1,596.0
43,605,2969911.0,7,4,2,1,3,8,left,0,0,6,6,4,no,1,921.0
43,606,2974488.0,7,1,2,5,6,4,left,0,0,5,8,1,no,1,974.0
43,607,2979095.0,7,5,2,1,4,8,left,1,0,11,7,5,yes,1,748.0
43,608,2983559.0,7,3,2,8,6,4,left,1,0,12,7,3,yes,1,934.0
44,609,2989751.0,6,7,8,3,1,4,right,0,0,8,1,7,no,1,792.0
44,610,2994327.0,6,3,8,2,5,1,right,0,0,7,5,3,no,1,725.0
44,611,2998774.0,6,1,8,5,2,7,right,0,0,6,4,1,no,1,1485.0
44,612,3004024.0,6,4,8,1,5,7,right,0,1,7,4,4,no,1,991.0
44,613,3008864.0,6,4,8,2,7,3,right,1,0,3,6,4,yes,1,491.0
44,614,3013032.0,6,2,8,1,7,3,right,0,0,9,4,2,yes,0,1094.0
45,615,3019310.0,4,5,2,8,7,6,left,0,0,2,8,5,no,1,770.0
45,616,3023921.0,4,7,2,6,1,3,left,1,0,7,4,7,no,0,639.0
45,617,3028136.0,4,5,2,8,3,1,left,0,0,2,1,5,yes,0,674.0
45,618,3032560.0,4,6,2,8,3,1,left,0,1,10,6,6,no,1,726.0
45,619,3037016.0,4,5,2,8,1,6,left,1,0,12,2,5,yes,1,706.0
45,620,3041305.0,4,7,2,8,1,5,left,1,0,7,2,7,yes,1,697.0
45,621,3045896.0,4,3,2,5,7,8,left,1,0,2,2,3,yes,1,588.0
45,622,3050201.0,4,1,2,3,7,8,left,0,0,9,3,1,no,1,965.0
45,623,3054865.0,4,1,2,3,6,8,left,0,1,11,1,1,none,0,1999.0
45,624,3060558.0,4,7,2,5,6,1,left,1,0,4,2,7,no,0,1112.0
46,625,3067073.0,8,2,7,3,1,5,right,0,0,1,4,2,no,1,706.0
46,626,3071665.0,8,6,7,4,1,2,right,0,0,1,4,6,no,1,816.0
46,627,3076041.0,8,6,7,1,5,4,right,1,0,8,8,6,yes,1,517.0
46,628,3080153.0,8,6,7,5,4,1,right,0,0,10,5,6,no,1,682.0
46,629,3084721.0,8,2,7,5,1,3,right,1,0,5,7,2,no,0,1836.0
46,630,3090233.0,8,5,7,3,2,1,right,0,0,5,6,5,no,1,1045.0
47,631,3097439.0,5,3,4,1,7,8,left,1,0,1,5,3,yes,1,616.0
47,632,3101729.0,5,2,4,7,1,3,left,0,0,4,7,2,no,1,737.0
47,633,3106232.0,5,3,4,2,1,6,left,0,0,5,8,3,no,1,649.0
47,634,3110488.0,5,7,4,2,1,3,left,1,0,7,5,7,yes,1,437.0
47,635,3114818.0,5,6,4,1,8,7,left,1,0,1,5,6,yes,1,709.0
47,636,3119090.0,5,2,4,1,7,6,left,0,0,1,8,2,no,1,676.0
47,637,3123522.0,5,1,4,6,8,3,left,1,0,4,5,1,yes,1,547.0
47,638,3127777.0,5,6,4,2,7,8,left,0,0,2,8,6,yes,0,1078.0
47,639,3132762.0,5,3,4,6,2,7,left,0,0,8,6,3,no,1,781.0
47,640,3137162.0,5,2,4,1,7,3,left,0,0,11,6,2,no,1,941.0
47,641,3143401.0,6,8,2,4,1,7,left,1,0,6,2,8,yes,1,1337.0
47,642,3148362.0,6,1,2,4,5,3,left,1,0,9,6,1,yes,1,956.0
47,643,3153226.0,6,7,2,4,8,1,left,0,0,5,3,7,none,0,1999.0
47,644,3158980.0,6,5,2,4,7,8,left,0,0,12,8,5,no,1,692.0
47,645,3163489.0,6,1,2,3,4,5,left,0,0,11,3,1,no,1,634.0
47,646,3167938.0,6,5,2,3,4,7,left,1,0,4,2,5,yes,1,927.0
47,647,3172523.0,6,5,2,1,4,7,left,1,0,8,6,5,yes,1,538.0
47,648,3176850.0,6,7,2,8,3,1,left,0,0,7,5,7,no,1,762.0
47,649,3181305.0,6,8,2,3,5,1,left,0,0,1,1,8,no,1,793.0
47,650,3185995.0,6,8,2,3,5,4,left,1,0,12,6,8,yes,1,644.0
47,651,3191753.0,8,4,1,3,5,6,left,0,0,7,3,4,no,1,684.0
47,652,3196131.0,8,4,1,3,7,2,left,1,0,9,1,4,yes,1,457.0
47,653,3200443.0,8,6,1,3,4,7,left,1,0,5,8,6,yes,1,622.0
47,654,3204826.0,8,6,1,5,3,7,left,1,0,10,8,6,yes,1,636.0
47,655,3209107.0,8,7,1,3,5,4,left,1,0,6,8,7,no,0,311.0
47,656,3213274.0,8,2,1,3,6,4,left,0,0,2,3,2,yes,0,1020.0
47,657,3217874.0,8,2,1,3,5,4,left,1,0,1,1,2,yes,1,886.0
47,658,3222579.0,8,2,1,3,7,5,left,1,0,9,8,2,yes,1,572.0
47,659,3227065.0,8,2,1,7,4,3,left,1,0,2,8,2,yes,1,532.0
47,660,3231235.0,8,7,1,3,6,2,left,0,0,10,5,7,no,1,669.0
47,661,3237258.0,2,5,3,7,1,6,left,1,0,9,3,5,yes,1,913.0
47,662,3242075.0,2,1,3,7,8,4,left,1,0,12,3,1,yes,1,625.0
47,663,3246235.0,2,8,3,7,1,4,left,1,0,1,2,8,yes,1,589.0
47,664,3250467.0,2,8,3,7,1,5,left,0,0,5,6,8,no,1,738.0
47,665,3255100.0,2,1,3,7,4,6,left,0,0,4,6,1,no,1,816.0
47,666,3259435.0,2,5,3,4,6,7,left,1,0,11,2,5,yes,1,501.0
48,667,3265066.0,7,2,6,5,1,3,right,1,0,4,7,2,yes,1,603.0
48,668,3269435.0,7,3,6,4,1,2,right,0,0,6,2,3,no,1,648.0
48,669,3273722.0,7,5,6,2,3,1,right,0,0,1,1,5,no,1,805.0
48,670,3278316.0,7,3,6,2,1,4,right,0,0,4,5,3,no,1,1013.0
48,671,3283027.0,7,5,6,2,1,3,right,0,0,1,3,5,no,1,717.0
48,672,3287372.0,7,1,6,8,4,3,right,0,0,6,8,1,none,0,1998.0
48,673,3293188.0,7,8,6,3,4,1,right,1,0,4,7,8,yes,1,713.0
48,674,3297708.0,7,1,6,5,8,4,right,1,0,10,6,1,yes,1,1582.0
48,675,3303188.0,7,5,6,8,4,2,right,1,0,8,7,5,yes,1,556.0
48,676,3307564.0,7,8,6,2,3,5,right,1,0,2,6,8,yes,1,472.0
49,677,3315092.0,8,1,2,3,4,6,left,1,0,3,2,1,yes,1,483.0
49,678,3319356.0,8,5,2,6,7,4,left,1,0,4,2,5,yes,1,618.0
49,679,3323884.0,8,1,2,5,6,4,left,0,1,11,1,1,no,1,922.0
49,680,3328412.0,8,7,2,4,1,6,left,0,0,9,1,7,none,0,1998.0
49,681,3334109.0,8,5,2,3,7,1,left,1,0,6,8,5,yes,1,557.0
49,682,3338325.0,8,6,2,5,1,7,left,1,0,3,2,6,yes,1,544.0
49,683,3342603.0,8,6,2,4,3,5,left,0,0,4,3,6,no,1,753.0
49,684,3347125.0,8,1,2,6,7,3,left,0,0,5,6,1,no,1,841.0
49,685,3351517.0,8,4,2,5,3,1,left,1,0,6,8,4,none,0,1998.0
49,686,3357117.0,8,4,2,6,3,7,left,1,0,4,2,4,no,0,643.0
50,687,3362820.0,1,3,5,4,8,6,right,1,0,6,1,3,yes,1,588.0
50,688,3367117.0,1,2,5,4,3,7,right,1,0,1,1,2,yes,1,581.0
50,689,3371235.0,1,8,5,4,6,2,right,1,0,2,1,8,yes,1,579.0
50,690,3375445.0,1,4,5,7,8,3,right,1,0,6,1,4,yes,1,699.0
50,691,3379700.0,1,4,5,8,2,6,right,0,1,9,4,4,no,1,1880.0
50,692,3385213.0,1,8,5,3,7,2,right,1,0,6,1,8,yes,1,608.0
50,693,3389702.0,1,3,5,4,8,2,right,1,0,6,5,3,yes,1,417.0
50,694,3393637.0,1,7,5,2,8,4,right,0,0,6,3,7,none,0,1998.0
50,695,3400772.0,3,8,4,6,1,2,right,1,0,8,4,8,yes,1,600.0
50,696,3405253.0,3,5,4,6,2,7,right,1,0,9,3,5,yes,1,506.0
50,697,3409445.0,3,8,4,6,2,1,right,1,0,6,4,8,yes,1,463.0
50,698,3413486.0,3,7,4,5,1,8,right,0,0,9,1,7,no,1,744.0
50,699,3418021.0,3,7,4,5,8,6,right,0,0,6,1,7,no,1,671.0
50,700,3422365.0,3,5,4,7,6,1,right,1,0,2,3,5,yes,1,703.0
50,701,3426758.0,3,5,4,2,6,8,right,1,0,8,4,5,yes,1,764.0
50,702,3431132.0,3,8,4,7,2,6,right,1,0,11,4,8,none,0,1997.0
50,703,3436782.0,3,6,4,1,2,5,right,0,0,7,2,6,no,1,1050.0
50,704,3441629.0,3,7,4,2,1,5,right,0,0,8,5,7,no,1,749.0
50,705,3447491.0,8,1,7,5,2,6,right,1,0,5,8,1,yes,1,492.0
50,706,3451702.0,8,5,7,4,1,3,right,1,0,1,7,5,yes,1,805.0
50,707,3456214.0,8,5,7,1,2,3,right,0,0,12,1,5,no,1,785.0
50,708,3460742.0,8,2,7,1,4,5,right,1,0,9,8,2,yes,1,480.0
50,709,3465015.0,8,5,7,1,4,3,right,0,0,5,6,5,no,1,1166.0
50,710,3469870.0,8,6,7,2,3,5,right,1,0,4,8,6,yes,1,513.0
50,711,3475550.0,6,7,5,4,2,8,right,0,0,1,8,7,no,1,854.0
50,712,3480159.0,6,7,5,4,3,1,right,0,1,7,7,7,no,1,1526.0
50,713,3485535.0,6,3,5,2,8,7,right,1,0,12,6,3,yes,1,515.0
50,714,3489702.0,6,7,5,2,8,3,right,1,0,5,5,7,yes,1,571.0
50,715,3494046.0,6,8,5,3,7,4,right,1,0,2,6,8,yes,1,452.0
50,716,3498335.0,6,7,5,3,1,2,right,1,0,1,6,7,yes,1,988.0
50,717,3503039.0,6,2,5,1,8,4,right,0,1,8,2,2,no,1,920.0
50,718,3507495.0,6,8,5,2,1,7,right,1,0,6,6,8,yes,1,536.0
50,719,3511823.0,6,7,5,1,8,4,right,1,0,8,6,7,yes,1,598.0
50,720,3516215.0,6,7,5,2,3,4,right,1,0,8,6,7,yes,1,689.0
