Block,Trial,Color,Side,Response,Correct,RT,Congruent
0,1,yellow,left,,False,,True
0,2,purple,right,,False,,True
0,3,red,right,left,True,1048.0,False
0,4,purple,right,left,True,918.0,False
0,5,blue,right,right,True,635.0,True
0,6,purple,right,left,True,946.0,False
0,7,yellow,right,right,True,1274.0,True
0,8,blue,left,right,True,1094.0,False
0,9,yellow,left,right,True,878.0,False
0,10,purple,right,left,True,678.0,False
0,11,yellow,left,right,True,798.0,False
0,12,purple,left,left,True,929.0,True
0,13,red,left,left,True,1154.0,True
0,14,yellow,right,right,True,672.0,True
0,15,blue,right,right,True,680.0,True
0,16,red,right,left,True,567.0,False
0,17,purple,left,left,True,573.0,True
0,18,purple,right,left,True,778.0,False
0,19,red,right,left,True,656.0,False
0,20,blue,left,right,True,586.0,False
0,21,yellow,left,right,True,726.0,False
0,22,red,right,left,True,866.0,False
0,23,yellow,left,right,True,976.0,False
0,24,purple,left,left,True,817.0,True
0,25,purple,right,left,True,688.0,False
0,26,red,left,left,True,928.0,True
0,27,red,left,left,True,739.0,True
0,28,red,left,left,True,588.0,True
0,29,blue,right,right,True,778.0,True
0,30,purple,left,left,True,502.0,True
0,31,yellow,right,right,True,530.0,True
0,32,red,left,left,True,562.0,True
0,33,red,right,left,True,684.0,False
0,34,blue,left,right,True,628.0,False
0,35,yellow,left,right,True,870.0,False
0,36,red,right,left,True,734.0,False
0,37,red,right,left,True,645.0,False
0,38,purple,right,left,True,946.0,False
0,39,blue,left,right,True,586.0,False
0,40,purple,right,left,True,786.0,False
0,41,purple,right,left,True,658.0,False
0,42,blue,left,right,True,660.0,False
0,43,yellow,left,right,True,677.0,False
0,44,purple,left,left,True,784.0,True
0,45,purple,right,left,True,780.0,False
0,46,purple,left,left,True,752.0,True
0,47,yellow,right,right,True,649.0,True
0,48,purple,left,left,True,698.0,True
0,49,purple,left,left,True,723.0,True
0,50,yellow,right,right,True,832.0,True
0,51,red,right,left,True,1039.0,False
0,52,purple,left,left,True,541.0,True
0,53,blue,left,right,True,792.0,False
0,54,yellow,right,right,True,624.0,True
0,55,blue,left,right,True,884.0,False
0,56,blue,right,right,True,1030.0,True
0,57,yellow,left,right,True,938.0,False
0,58,blue,left,right,True,894.0,False
0,59,blue,right,right,True,644.0,True
0,60,yellow,right,right,True,610.0,True
1,61,yellow,left,right,True,834.0,False
1,62,red,left,left,True,716.0,True
1,63,red,left,left,True,684.0,True
1,64,red,left,left,True,656.0,True
1,65,purple,left,left,True,706.0,True
1,66,red,right,left,True,990.0,False
1,67,yellow,right,right,True,1151.0,True
1,68,yellow,right,right,True,686.0,True
1,69,purple,left,left,True,959.0,True
1,70,purple,right,left,True,806.0,False
1,71,red,right,left,True,730.0,False
1,72,purple,right,left,True,698.0,False
1,73,purple,right,left,True,844.0,False
1,74,blue,right,left,False,768.0,True
1,75,blue,right,right,True,1116.0,True
1,76,yellow,left,right,True,806.0,False
1,77,red,right,left,True,934.0,False
1,78,yellow,left,right,True,850.0,False
1,79,purple,right,left,True,865.0,False
1,80,blue,left,right,True,814.0,False
1,81,purple,left,left,True,856.0,True
1,82,red,right,left,True,1295.0,False
1,83,purple,left,left,True,1168.0,True
1,84,purple,right,left,True,867.0,False
1,85,blue,right,right,True,1150.0,True
1,86,yellow,right,right,True,604.0,True
1,87,red,left,left,True,1108.0,True
1,88,red,left,left,True,816.0,True
1,89,red,left,left,True,657.0,True
1,90,red,right,left,True,920.0,False
1,91,red,right,left,True,708.0,False
1,92,yellow,right,right,True,688.0,True
1,93,purple,right,,False,,True
1,94,purple,left,left,True,715.0,True
1,95,purple,right,left,True,774.0,False
1,96,yellow,right,right,True,754.0,True
1,97,yellow,left,right,True,730.0,False
1,98,blue,left,right,True,1112.0,False
1,99,red,right,left,True,856.0,False
1,100,purple,left,left,True,664.0,True
1,101,red,right,left,True,1384.0,False
1,102,purple,left,left,True,860.0,True
1,103,yellow,right,right,True,599.0,True
1,104,purple,right,left,True,790.0,False
1,105,blue,right,right,True,1100.0,True
1,106,purple,left,left,True,732.0,True
1,107,red,left,left,True,946.0,True
1,108,blue,left,right,True,724.0,False
1,109,blue,right,right,True,756.0,True
1,110,yellow,left,right,True,1006.0,False
1,111,purple,left,left,True,630.0,True
1,112,yellow,right,right,True,898.0,True
1,113,purple,right,left,True,962.0,False
1,114,red,right,left,True,1169.0,False
1,115,red,left,left,True,840.0,True
1,116,blue,left,right,True,872.0,False
1,117,blue,left,right,True,878.0,False
1,118,blue,right,right,True,1378.0,True
1,119,yellow,left,right,True,1018.0,False
1,120,red,right,left,True,799.0,False
2,121,blue,left,right,True,896.0,False
2,122,yellow,right,right,True,577.0,True
2,123,blue,left,right,True,999.0,False
2,124,blue,right,right,True,872.0,True
2,125,red,left,left,True,638.0,True
2,126,red,right,left,True,740.0,False
2,127,purple,left,left,True,1098.0,True
2,128,blue,right,right,True,626.0,True
2,129,blue,left,right,True,728.0,False
2,130,purple,left,left,True,918.0,True
2,131,red,right,left,True,772.0,False
2,132,yellow,left,right,True,684.0,False
2,133,red,left,left,True,632.0,True
2,134,red,left,left,True,730.0,True
2,135,yellow,right,right,True,845.0,True
2,136,red,right,left,True,772.0,False
2,137,yellow,left,right,True,875.0,False
2,138,red,left,left,True,620.0,True
2,139,purple,right,left,True,627.0,False
2,140,red,left,right,False,689.0,True
2,141,purple,left,left,True,1117.0,True
2,142,red,right,left,True,740.0,False
2,143,yellow,left,right,True,956.0,False
2,144,red,right,left,True,964.0,False
2,145,purple,right,left,True,800.0,False
2,146,yellow,left,right,True,978.0,False
2,147,blue,left,right,True,1062.0,False
2,148,yellow,left,right,True,990.0,False
2,149,red,left,left,True,946.0,True
2,150,yellow,left,right,True,718.0,False
2,151,purple,left,left,True,966.0,True
2,152,blue,left,right,True,780.0,False
2,153,yellow,right,right,True,648.0,True
2,154,yellow,right,right,True,638.0,True
2,155,yellow,left,right,True,840.0,False
2,156,blue,left,right,True,716.0,False
2,157,yellow,right,right,True,752.0,True
2,158,blue,right,right,True,700.0,True
2,159,yellow,left,right,True,724.0,False
2,160,red,right,left,True,600.0,False
2,161,blue,left,right,True,636.0,False
2,162,blue,left,right,True,688.0,False
2,163,red,left,left,True,572.0,True
2,164,yellow,left,right,True,690.0,False
2,165,red,left,left,True,630.0,True
2,166,yellow,right,right,True,916.0,True
2,167,purple,left,left,True,746.0,True
2,168,yellow,left,right,True,724.0,False
2,169,red,right,left,True,780.0,False
2,170,red,right,left,True,722.0,False
2,171,blue,left,right,True,746.0,False
2,172,yellow,right,right,True,1076.0,True
2,173,blue,left,right,True,842.0,False
2,174,yellow,left,right,True,706.0,False
2,175,purple,right,left,True,878.0,False
2,176,red,right,left,True,1164.0,False
2,177,red,right,left,True,946.0,False
2,178,red,right,left,True,626.0,False
2,179,yellow,right,left,False,630.0,True
2,180,blue,right,right,True,1154.0,True
3,181,blue,left,right,True,905.0,False
3,182,red,left,left,True,715.0,True
3,183,blue,right,right,True,706.0,True
3,184,yellow,left,right,True,973.0,False
3,185,blue,left,right,True,602.0,False
3,186,blue,left,right,True,793.0,False
3,187,purple,left,left,True,1258.0,True
3,188,blue,right,right,True,778.0,True
3,189,red,right,left,True,692.0,False
3,190,blue,left,right,True,704.0,False
3,191,purple,right,left,True,750.0,False
3,192,yellow,left,right,True,572.0,False
3,193,blue,right,right,True,872.0,True
3,194,blue,left,right,True,730.0,False
3,195,blue,left,right,True,720.0,False
3,196,red,left,left,True,824.0,True
3,197,red,left,left,True,802.0,True
3,198,red,left,left,True,772.0,True
3,199,purple,right,left,True,786.0,False
3,200,blue,left,right,True,1026.0,False
3,201,yellow,left,right,True,782.0,False
3,202,yellow,right,right,True,862.0,True
3,203,yellow,left,right,True,838.0,False
3,204,purple,left,left,True,998.0,True
3,205,blue,left,right,True,890.0,False
3,206,yellow,right,right,True,1126.0,True
3,207,red,left,left,True,671.0,True
3,208,yellow,left,right,True,691.0,False
3,209,red,left,left,True,792.0,True
3,210,purple,right,right,False,1090.0,False
3,211,blue,left,,False,,True
3,212,yellow,left,right,True,809.0,False
3,213,yellow,left,right,True,902.0,False
3,214,blue,left,right,True,922.0,False
3,215,red,right,left,True,748.0,False
3,216,blue,right,right,True,618.0,True
3,217,yellow,right,right,True,820.0,True
3,218,red,right,left,True,1174.0,False
3,219,yellow,left,right,True,750.0,False
3,220,yellow,left,right,True,716.0,False
3,221,red,right,left,True,682.0,False
3,222,purple,left,left,True,1108.0,True
3,223,purple,right,left,True,901.0,False
3,224,blue,left,right,True,682.0,False
3,225,red,left,left,True,950.0,True
3,226,blue,right,right,True,1214.0,True
3,227,blue,right,right,True,1054.0,True
3,228,red,left,left,True,750.0,True
3,229,blue,right,right,True,606.0,True
3,230,purple,right,left,True,924.0,False
3,231,yellow,left,right,True,1098.0,False
3,232,yellow,left,right,True,998.0,False
3,233,blue,right,right,True,774.0,True
3,234,blue,right,right,True,664.0,True
3,235,red,left,left,True,830.0,True
3,236,blue,left,right,True,730.0,False
3,237,blue,left,right,True,764.0,False
3,238,purple,right,left,True,892.0,False
3,239,yellow,right,right,True,1302.0,True
3,240,yellow,right,right,True,806.0,True
4,241,purple,right,left,True,1126.0,False
4,242,blue,left,right,True,841.0,False
4,243,yellow,right,right,True,882.0,True
4,244,blue,left,left,False,668.0,False
4,245,red,right,left,True,782.0,False
4,246,purple,right,left,True,1128.0,False
4,247,red,left,left,True,1134.0,True
4,248,yellow,right,right,True,640.0,True
4,249,yellow,left,right,True,712.0,False
4,250,red,left,left,True,1076.0,True
4,251,blue,right,right,True,1070.0,True
4,252,purple,left,left,True,916.0,True
4,253,red,left,left,True,1114.0,True
4,254,red,right,left,True,870.0,False
4,255,yellow,right,right,True,892.0,True
4,256,red,left,left,True,782.0,True
4,257,blue,left,right,True,674.0,False
4,258,red,left,left,True,946.0,True
4,259,red,left,left,True,747.0,True
4,260,yellow,left,right,True,766.0,False
4,261,yellow,right,right,True,676.0,True
4,262,red,right,left,True,686.0,False
4,263,red,left,left,True,920.0,True
4,264,purple,left,left,True,1061.0,True
4,265,blue,left,right,True,814.0,False
4,266,blue,left,right,True,732.0,False
4,267,purple,left,left,True,867.0,True
4,268,yellow,left,right,True,872.0,False
4,269,purple,left,left,True,642.0,True
4,270,yellow,right,right,True,766.0,True
4,271,purple,left,left,True,690.0,True
4,272,yellow,right,right,True,634.0,True
4,273,purple,left,left,True,942.0,True
4,274,yellow,left,right,True,630.0,False
4,275,blue,right,right,True,621.0,True
4,276,yellow,left,right,True,635.0,False
4,277,yellow,right,right,True,692.0,True
4,278,yellow,left,right,True,724.0,False
4,279,yellow,left,right,True,780.0,False
4,280,purple,right,left,True,802.0,False
4,281,purple,left,left,True,910.0,True
4,282,yellow,right,right,True,766.0,True
4,283,purple,left,left,True,826.0,True
4,284,yellow,right,right,True,636.0,True
4,285,blue,right,right,True,1110.0,True
4,286,yellow,right,right,True,872.0,True
4,287,red,left,left,True,908.0,True
4,288,blue,left,right,True,662.0,False
4,289,purple,left,left,True,774.0,True
4,290,purple,left,left,True,754.0,True
4,291,yellow,right,right,True,1192.0,True
4,292,purple,left,left,True,1004.0,True
4,293,purple,right,left,True,792.0,False
4,294,yellow,left,right,True,751.0,False
4,295,red,left,left,True,1188.0,True
4,296,blue,left,right,True,700.0,False
4,297,blue,right,right,True,682.0,True
4,298,yellow,right,right,True,542.0,True
4,299,purple,right,left,True,932.0,False
4,300,yellow,left,right,True,672.0,False
5,301,blue,right,right,True,832.0,True
5,302,purple,right,left,True,842.0,False
5,303,purple,right,left,True,836.0,False
5,304,purple,right,left,True,663.0,False
5,305,yellow,right,left,False,679.0,True
5,306,blue,left,right,True,697.0,False
5,307,purple,left,left,True,1091.0,True
5,308,yellow,right,right,True,587.0,True
5,309,red,right,left,True,882.0,False
5,310,blue,left,right,True,692.0,False
5,311,red,right,right,False,791.0,False
5,312,red,right,left,True,928.0,False
5,313,yellow,left,right,True,694.0,False
5,314,yellow,right,right,True,1090.0,True
5,315,yellow,left,right,True,824.0,False
5,316,red,right,left,True,1062.0,False
5,317,yellow,right,right,True,886.0,True
5,318,blue,left,right,True,890.0,False
5,319,red,right,left,True,659.0,False
5,320,purple,left,left,True,994.0,True
5,321,blue,left,right,True,918.0,False
5,322,blue,right,right,True,1090.0,True
5,323,yellow,right,right,True,980.0,True
5,324,red,right,left,True,900.0,False
5,325,blue,right,right,True,1190.0,True
5,326,purple,left,left,True,832.0,True
5,327,yellow,right,right,True,760.0,True
5,328,purple,left,left,True,906.0,True
5,329,blue,left,right,True,840.0,False
5,330,red,right,left,True,944.0,False
5,331,blue,left,right,True,926.0,False
5,332,red,right,left,True,642.0,False
5,333,blue,right,right,True,1008.0,True
5,334,yellow,right,right,True,826.0,True
5,335,purple,right,left,True,794.0,False
5,336,blue,right,right,True,949.0,True
5,337,red,left,left,True,955.0,True
5,338,yellow,left,right,True,692.0,False
5,339,red,left,left,True,742.0,True
5,340,yellow,right,right,True,1066.0,True
5,341,blue,right,right,True,838.0,True
5,342,purple,left,left,True,953.0,True
5,343,yellow,left,right,True,832.0,False
5,344,blue,right,right,True,1006.0,True
5,345,purple,left,left,True,942.0,True
5,346,purple,left,,False,,True
5,347,purple,right,left,True,774.0,False
5,348,red,left,right,False,850.0,True
5,349,purple,right,left,True,809.0,False
5,350,blue,right,right,True,805.0,True
5,351,blue,right,right,True,648.0,True
5,352,yellow,left,left,False,652.0,False
5,353,purple,left,left,True,918.0,True
5,354,purple,right,left,True,762.0,False
5,355,red,right,left,True,1082.0,False
5,356,blue,left,right,True,786.0,False
5,357,blue,right,right,True,882.0,True
5,358,red,right,left,True,870.0,False
5,359,yellow,right,right,True,775.0,True
5,360,red,left,left,True,1046.0,True
6,361,red,left,left,True,868.0,True
6,362,red,right,left,True,720.0,False
6,363,purple,left,left,True,668.0,True
6,364,red,left,left,True,609.0,True
6,365,yellow,left,right,True,594.0,False
6,366,red,left,left,True,854.0,True
6,367,yellow,right,right,True,930.0,True
6,368,purple,left,left,True,696.0,True
6,369,red,left,left,True,642.0,True
6,370,red,right,left,True,714.0,False
6,371,purple,right,left,True,1008.0,False
6,372,blue,right,right,True,644.0,True
6,373,purple,left,left,True,632.0,True
6,374,blue,right,right,True,602.0,True
6,375,purple,right,left,True,888.0,False
6,376,blue,right,right,True,900.0,True
6,377,red,left,left,True,581.0,True
6,378,purple,right,left,True,672.0,False
6,379,blue,right,right,True,821.0,True
6,380,purple,right,left,True,841.0,False
6,381,blue,right,right,True,862.0,True
6,382,purple,right,left,True,780.0,False
6,383,blue,right,right,True,918.0,True
6,384,yellow,left,right,True,960.0,False
6,385,blue,right,right,True,888.0,True
6,386,red,right,left,True,768.0,False
6,387,red,left,left,True,684.0,True
6,388,red,left,left,True,656.0,True
6,389,yellow,left,right,True,714.0,False
6,390,purple,left,right,False,1002.0,True
6,391,blue,right,right,True,790.0,True
6,392,purple,left,left,True,1224.0,True
6,393,blue,right,right,True,1237.0,True
6,394,purple,right,left,True,860.0,False
6,395,blue,left,right,True,988.0,False
6,396,purple,left,left,True,1110.0,True
6,397,blue,right,right,True,858.0,True
6,398,red,right,left,True,836.0,False
6,399,red,right,left,True,746.0,False
6,400,blue,left,right,True,650.0,False
6,401,purple,left,left,True,910.0,True
6,402,yellow,left,right,True,1164.0,False
6,403,red,left,left,True,868.0,True
6,404,yellow,right,right,True,612.0,True
6,405,yellow,left,right,True,737.0,False
6,406,purple,right,left,True,768.0,False
6,407,red,left,left,True,832.0,True
6,408,blue,left,right,True,836.0,False
6,409,red,right,left,True,744.0,False
6,410,blue,right,right,True,710.0,True
6,411,red,left,left,True,936.0,True
6,412,purple,right,left,True,868.0,False
6,413,blue,right,right,True,682.0,True
6,414,purple,right,left,True,806.0,False
6,415,purple,left,left,True,1062.0,True
6,416,blue,left,right,True,888.0,False
6,417,blue,left,right,True,854.0,False
6,418,blue,right,right,True,822.0,True
6,419,red,right,left,True,882.0,False
6,420,blue,right,right,True,749.0,True
7,421,yellow,left,right,True,869.0,False
7,422,purple,right,left,True,654.0,False
7,423,yellow,right,right,True,710.0,True
7,424,blue,right,right,True,983.0,True
7,425,purple,left,left,True,716.0,True
7,426,purple,right,left,True,712.0,False
7,427,yellow,left,right,True,752.0,False
7,428,purple,right,left,True,806.0,False
7,429,yellow,right,left,False,902.0,True
7,430,red,left,left,True,1182.0,True
7,431,red,left,left,True,916.0,True
7,432,blue,right,right,True,1056.0,True
7,433,yellow,right,right,True,858.0,True
7,434,purple,right,left,True,992.0,False
7,435,purple,left,left,True,1384.0,True
7,436,blue,right,right,True,636.0,True
7,437,purple,right,left,True,879.0,False
7,438,purple,right,left,True,838.0,False
7,439,blue,left,right,True,852.0,False
7,440,yellow,right,right,True,870.0,True
7,441,purple,left,left,True,782.0,True
7,442,blue,right,right,True,768.0,True
7,443,red,right,left,True,752.0,False
7,444,red,right,left,True,728.0,False
7,445,yellow,left,right,True,784.0,False
7,446,red,left,left,True,1042.0,True
7,447,red,left,left,True,880.0,True
7,448,yellow,left,right,True,813.0,False
7,449,blue,right,right,True,881.0,True
7,450,purple,left,left,True,857.0,True
7,451,blue,left,right,True,873.0,False
7,452,red,right,left,True,1039.0,False
7,453,purple,right,left,True,936.0,False
7,454,red,left,left,True,723.0,True
7,455,red,left,left,True,876.0,True
7,456,red,right,left,True,726.0,False
7,457,purple,right,left,True,1050.0,False
7,458,blue,right,right,True,996.0,True
7,459,purple,right,left,True,838.0,False
7,460,purple,left,left,True,1173.0,True
7,461,red,right,left,True,980.0,False
7,462,purple,left,left,True,848.0,True
7,463,blue,left,right,True,1214.0,False
7,464,yellow,right,right,True,894.0,True
7,465,yellow,left,right,True,954.0,False
7,466,blue,right,right,True,1222.0,True
7,467,purple,right,left,True,866.0,False
7,468,red,right,,False,,True
7,469,yellow,right,right,True,730.0,True
7,470,yellow,right,right,True,744.0,True
7,471,blue,right,right,True,856.0,True
7,472,red,left,left,True,774.0,True
7,473,blue,left,right,True,970.0,False
7,474,yellow,right,right,True,766.0,True
7,475,yellow,right,right,True,756.0,True
7,476,purple,right,left,True,906.0,False
7,477,purple,left,right,False,878.0,True
7,478,red,right,left,True,984.0,False
7,479,yellow,right,right,True,950.0,True
7,480,blue,left,right,True,880.0,False
